Oscilloscope Trace Export		
Festo Didactic LVDAC-EMS 3.19		
		
		
		Ch1		Ch2		Ch3		Ch4		Ch5		Ch6		Ch7		Ch8		
Time 		E1		I1		E2		I2		E3		I3		E4		I4		
(ms)		(V)		(A)		(V)		(A)		(V)		(A)		(V)		(A)		
0.000		9.2		0.008		-187.4		0.011		178.8		0.256		175.7		0.269		
0.098		16.3		-0.002		-189.6		-0.011		171.3		0.258		171.7		0.259		
0.195		26.0		0.011		-191.4		-0.006		166.9		0.239		166.5		0.254		
0.293		30.8		-0.006		-197.5		-0.002		164.3		0.245		165.7		0.246		
0.391		38.3		0.006		-201.9		0.000		158.2		0.232		159.1		0.237		
0.488		44.9		-0.006		-203.2		-0.013		156.4		0.222		156.5		0.226		
0.586		53.7		0.002		-205.8		-0.008		151.2		0.226		153.0		0.220		
0.684		59.0		0.004		-206.2		0.006		150.7		0.218		147.0		0.222		
0.781		65.6		0.002		-209.3		0.004		141.5		0.209		141.7		0.201		
0.879		75.7		0.013		-208.9		-0.011		135.8		0.209		135.2		0.207		
0.977		80.5		-0.004		-214.1		0.002		129.2		0.194		132.2		0.209		
1.074		86.2		-0.004		-210.2		0.000		127.5		0.201		130.4		0.188		
1.172		91.1		0.004		-208.4		-0.011		125.3		0.182		121.7		0.186		
1.270		98.1		-0.008		-213.7		0.000		118.3		0.188		119.1		0.173		
1.367		106.5		0.002		-212.8		-0.002		116.1		0.169		113.0		0.162		
1.465		110.0		0.000		-217.6		0.002		108.7		0.163		110.4		0.152		
1.563		108.3		0.124		-212.8		0.008		105.6		0.027		109.6		0.162		
1.660		117.1		0.173		-214.6		-0.008		101.6		-0.004		117.0		0.177		
1.758		122.3		0.181		-216.7		0.011		97.3		-0.002		123.5		0.175		
1.855		124.5		0.190		-216.3		-0.008		92.0		0.000		127.0		0.194		
1.953		132.0		0.192		-215.9		0.002		84.1		-0.004		129.1		0.192		
2.051		133.3		0.186		-215.0		-0.004		81.5		-0.002		131.3		0.197		
2.148		139.5		0.205		-216.3		-0.011		76.2		-0.006		136.5		0.203		
2.246		139.5		0.202		-214.6		-0.006		69.2		-0.011		138.7		0.209		
2.344		145.2		0.213		-216.3		-0.008		61.8		0.013		146.5		0.212		
2.441		147.9		0.205		-215.9		0.002		56.5		-0.002		148.7		0.216		
2.539		152.3		0.234		-212.8		-0.002		49.1		0.000		154.3		0.224		
2.637		155.8		0.230		-209.3		0.002		42.1		0.008		157.8		0.229		
2.734		160.2		0.234		-205.8		0.011		34.2		-0.004		161.7		0.237		
2.832		164.6		0.242		-201.4		0.002		27.2		0.019		167.0		0.229		
2.930		170.7		0.253		-195.7		-0.008		21.5		0.008		170.4		0.248		
3.027		176.0		0.259		-189.2		-0.002		14.5		0.006		173.0		0.261		
3.125		181.7		0.261		-184.8		-0.015		9.2		0.000		176.5		0.248		
3.223		180.0		0.268		-178.7		0.006		-0.9		0.000		179.1		0.276		
3.320		186.1		0.272		-177.8		-0.002		-11.0		0.008		186.1		0.274		
3.418		188.3		0.283		-173.0		0.008		-14.9		0.002		187.0		0.276		
3.516		189.7		0.287		-168.1		-0.008		-24.5		-0.004		190.9		0.276		
3.613		192.7		0.278		-166.4		-0.011		-32.0		-0.002		191.7		0.282		
3.711		196.7		0.293		-160.7		-0.013		-42.5		0.002		197.0		0.288		
3.809		198.5		0.299		-157.2		-0.004		-45.1		-0.021		198.7		0.299		
3.906		202.0		0.299		-154.1		0.000		-53.9		-0.004		198.3		0.295		
4.004		203.3		0.299		-146.3		-0.002		-59.1		0.002		203.0		0.295		
4.102		206.8		0.308		-144.5		0.006		-65.3		0.006		206.5		0.303		
4.199		207.3		0.310		-137.5		-0.011		-73.2		-0.006		206.5		0.299		
4.297		210.3		0.310		-132.7		-0.013		-81.1		0.000		210.0		0.299		
4.395		210.8		0.310		-127.0		0.002		-87.6		-0.002		210.0		0.312		
4.492		211.7		0.304		-124.4		-0.006		-93.3		-0.002		211.7		0.310		
4.590		212.5		0.295		-120.0		-0.008		-94.2		-0.004		209.6		0.303		
4.688		213.4		0.310		-114.7		0.002		-102.5		-0.004		210.9		0.314		
4.785		214.3		0.316		-108.2		-0.006		-108.7		-0.006		213.5		0.306		
4.883		212.5		0.304		-109.0		0.000		-113.5		0.002		212.2		0.318		
4.980		215.2		0.314		-102.5		-0.004		-117.0		-0.004		216.1		0.303		
5.078		213.9		0.312		-95.9		-0.017		-120.0		-0.011		213.5		0.314		
5.176		213.4		0.316		-89.8		0.008		-124.0		-0.006		212.6		0.316		
5.273		214.7		0.308		-85.8		-0.004		-128.4		0.000		214.3		0.333		
5.371		213.0		0.325		-81.4		0.006		-133.6		-0.008		214.8		0.312		
5.469		215.6		0.299		-75.8		-0.021		-133.6		0.000		212.2		0.308		
5.566		211.2		0.308		-70.5		0.002		-138.0		0.004		213.9		0.314		
5.664		213.4		0.310		-62.6		0.004		-143.7		0.002		213.9		0.312		
5.762		211.7		0.302		-52.5		0.002		-150.7		-0.011		211.7		0.316		
5.859		214.7		0.308		-47.3		-0.015		-152.5		-0.004		208.7		0.310		
5.957		209.9		0.302		-39.4		-0.006		-159.0		-0.013		210.9		0.308		
6.055		205.1		0.308		-33.3		-0.006		-163.4		-0.002		203.9		0.303		
6.152		202.9		0.297		-27.6		-0.011		-165.2		0.004		202.2		0.308		
6.250		196.3		0.280		-20.6		0.000		-171.7		-0.004		193.9		0.291		
6.348		191.0		0.285		-15.3		-0.006		-176.6		0.008		190.9		0.284		
6.445		186.6		0.278		-8.3		-0.004		-178.3		-0.013		184.8		0.263		
6.543		180.0		0.255		1.3		-0.002		-185.3		-0.004		179.6		0.259		
6.641		174.3		0.270		7.0		0.004		-185.3		0.011		175.7		0.263		
6.738		174.7		0.261		18.8		0.015		-189.7		0.002		168.3		0.250		
6.836		169.9		0.240		25.0		0.002		-196.3		-0.006		167.0		0.250		
6.934		166.8		0.242		29.3		-0.011		-197.6		0.006		163.9		0.252		
7.031		163.3		0.234		36.3		0.000		-198.9		-0.002		159.6		0.241		
7.129		153.6		0.232		45.1		0.008		-203.7		-0.002		153.5		0.224		
7.227		150.5		0.224		51.2		0.000		-206.4		-0.011		151.7		0.226		
7.324		146.5		0.234		59.1		0.006		-208.5		-0.006		147.4		0.222		
7.422		145.2		0.217		67.9		-0.004		-209.0		-0.002		140.9		0.209		
7.520		139.1		0.200		71.8		-0.004		-207.7		-0.004		140.4		0.203		
7.617		132.5		0.196		76.6		0.002		-211.2		-0.006		131.7		0.194		
7.715		128.9		0.188		85.4		0.000		-210.7		-0.013		127.4		0.184		
7.813		126.3		0.188		88.0		0.013		-210.7		-0.017		122.6		0.179		
7.910		119.7		0.183		95.0		0.008		-211.6		-0.002		121.7		0.169		
8.008		114.0		0.173		101.6		-0.006		-212.0		-0.011		113.5		0.165		
8.105		111.8		0.162		105.1		-0.006		-215.6		0.011		111.3		0.162		
8.203		106.9		0.105		109.0		0.072		-216.4		0.000		107.4		0.165		
8.301		102.5		-0.002		114.3		0.158		-214.7		0.002		116.1		0.158		
8.398		99.4		0.000		119.5		0.186		-214.2		-0.004		123.0		0.177		
8.496		94.6		-0.008		122.2		0.182		-216.4		0.000		125.7		0.190		
8.594		84.9		0.004		126.5		0.194		-216.9		0.002		129.1		0.197		
8.691		81.4		0.002		130.9		0.188		-214.2		-0.011		133.5		0.197		
8.789		77.0		0.000		134.4		0.211		-215.6		-0.013		139.1		0.209		
8.887		72.2		-0.015		136.6		0.207		-217.3		0.000		141.7		0.203		
8.984		69.5		0.006		141.4		0.215		-214.2		0.002		140.9		0.214		
9.082		58.5		0.004		150.2		0.220		-213.8		-0.011		148.7		0.218		
9.180		50.6		0.006		151.1		0.228		-215.1		-0.004		148.7		0.231		
9.277		44.4		-0.002		155.9		0.247		-209.9		-0.004		156.1		0.229		
9.375		36.1		-0.004		160.7		0.243		-209.9		-0.006		161.7		0.229		
9.473		28.6		0.004		163.3		0.243		-205.0		-0.006		163.5		0.244		
9.570		20.7		0.000		165.5		0.253		-201.1		-0.002		167.0		0.256		
9.668		15.0		-0.002		175.6		0.258		-195.8		-0.008		173.0		0.265		
9.766		9.2		-0.013		174.3		0.262		-191.5		-0.015		174.3		0.263		
9.863		3.5		-0.008		178.7		0.272		-184.4		0.004		181.7		0.278		
9.961		-5.7		-0.013		183.9		0.270		-177.4		-0.006		185.7		0.271		
10.059		-9.7		-0.002		186.1		0.285		-177.4		0.002		188.3		0.288		
10.156		-19.4		0.000		189.6		0.285		-173.9		-0.006		192.2		0.274		
10.254		-30.4		-0.011		196.6		0.296		-168.2		-0.006		194.8		0.280		
10.352		-33.9		-0.004		199.2		0.287		-159.9		-0.013		197.4		0.293		
10.449		-44.9		-0.006		201.9		0.287		-155.1		0.013		199.6		0.297		
10.547		-51.5		0.000		201.4		0.298		-153.8		-0.006		202.2		0.301		
10.645		-60.3		-0.004		201.9		0.296		-149.0		-0.008		204.3		0.284		
10.742		-65.6		-0.004		205.8		0.306		-141.9		0.002		206.1		0.312		
10.840		-72.6		-0.013		204.1		0.310		-139.3		0.000		208.7		0.316		
10.938		-79.2		0.000		208.9		0.312		-133.6		-0.008		209.1		0.303		
11.035		-84.5		0.002		208.9		0.319		-126.2		-0.004		213.0		0.301		
11.133		-89.3		0.004		209.7		0.302		-124.9		0.000		212.6		0.316		
11.230		-95.9		0.002		212.8		0.319		-119.6		-0.002		212.2		0.306		
11.328		-102.1		-0.002		208.9		0.317		-117.4		-0.008		210.0		0.329		
11.426		-106.1		-0.002		213.2		0.310		-113.0		-0.002		213.9		0.321		
11.523		-111.8		-0.004		212.8		0.310		-104.3		-0.017		210.9		0.314		
11.621		-117.5		-0.017		212.4		0.315		-101.2		0.004		213.0		0.314		
11.719		-120.6		-0.011		214.6		0.308		-97.3		0.004		212.2		0.321		
11.816		-124.5		-0.011		214.1		0.323		-95.1		0.004		213.9		0.323		
11.914		-128.9		-0.013		212.4		0.312		-89.4		-0.015		210.9		0.321		
12.012		-131.6		0.000		213.2		0.308		-80.2		-0.008		214.3		0.310		
12.109		-134.7		-0.004		210.6		0.323		-78.4		0.006		210.0		0.316		
12.207		-141.3		-0.013		214.6		0.323		-70.1		0.006		212.6		0.318		
12.305		-144.3		-0.002		210.6		0.312		-65.7		-0.008		214.3		0.310		
12.402		-146.5		-0.002		210.6		0.310		-57.4		-0.008		211.3		0.321		
12.500		-151.4		-0.008		208.4		0.312		-53.9		-0.013		208.7		0.314		
12.598		-154.9		-0.006		209.7		0.323		-42.1		-0.002		207.8		0.297		
12.695		-161.9		-0.008		203.6		0.308		-35.5		-0.002		206.1		0.318		
12.793		-166.3		-0.004		200.1		0.300		-29.8		-0.008		201.3		0.310		
12.891		-170.7		-0.006		191.8		0.279		-24.5		0.002		193.0		0.299		
12.988		-170.3		0.000		189.2		0.287		-18.4		-0.006		192.2		0.278		
13.086		-176.9		0.004		185.7		0.268		-8.8		-0.002		185.2		0.284		
13.184		-179.5		-0.015		180.4		0.266		-3.5		-0.002		180.9		0.269		
13.281		-183.5		-0.002		179.5		0.262		7.9		-0.004		180.9		0.280		
13.379		-187.0		-0.015		171.2		0.270		14.9		-0.015		174.3		0.259		
13.477		-191.0		0.004		169.9		0.243		22.3		-0.004		169.6		0.256		
13.574		-194.9		0.015		164.6		0.249		33.3		-0.002		165.7		0.250		
13.672		-196.7		-0.004		160.3		0.236		35.0		0.006		163.5		0.254		
13.770		-202.4		-0.011		152.8		0.239		43.8		0.004		157.8		0.235		
13.867		-202.0		0.002		154.1		0.224		50.8		0.013		151.3		0.222		
13.965		-202.0		-0.004		147.6		0.211		57.4		0.004		146.1		0.235		
14.063		-205.1		0.004		141.4		0.209		63.5		0.008		142.2		0.201		
14.160		-210.3		-0.006		137.1		0.205		68.8		0.000		137.0		0.205		
14.258		-208.6		0.002		132.2		0.175		78.9		0.000		131.3		0.203		
14.355		-209.9		-0.006		127.0		0.192		83.7		0.004		130.0		0.186		
14.453		-212.1		-0.004		123.9		0.190		86.3		0.002		124.3		0.186		
14.551		-210.8		-0.008		117.4		0.186		94.2		0.004		116.5		0.188		
14.648		-211.2		0.000		117.8		0.173		99.0		-0.002		116.1		0.169		
14.746		-213.0		-0.008		110.3		0.160		104.7		0.004		110.9		0.162		
14.844		-213.9		-0.004		108.6		0.114		109.5		0.053		107.8		0.152		
14.941		-213.0		-0.004		103.3		-0.006		111.7		0.167		111.3		0.160		
15.039		-213.0		-0.002		94.1		-0.015		117.0		0.182		118.3		0.179		
15.137		-212.5		0.004		91.1		0.002		123.5		0.182		122.2		0.177		
15.234		-215.2		-0.004		84.1		0.008		127.5		0.190		130.4		0.182		
15.332		-215.6		-0.004		79.7		0.006		129.2		0.190		131.3		0.197		
15.430		-213.4		-0.008		74.0		-0.008		134.5		0.194		136.1		0.201		
15.527		-214.7		-0.002		70.9		0.000		136.3		0.205		141.7		0.205		
15.625		-215.6		-0.008		61.7		0.017		141.5		0.209		142.6		0.203		
15.723		-214.7		0.000		55.6		0.015		146.3		0.215		147.8		0.216		
15.820		-212.5		-0.015		48.2		-0.002		151.6		0.224		151.3		0.216		
15.918		-209.9		0.008		40.7		0.002		156.0		0.234		153.9		0.222		
16.016		-206.8		-0.004		35.9		0.002		160.8		0.222		157.4		0.237		
16.113		-201.5		-0.011		26.3		0.008		164.7		0.243		164.8		0.248		
16.211		-198.5		0.000		21.5		-0.002		166.9		0.253		168.3		0.237		
16.309		-194.5		-0.006		17.5		0.004		174.4		0.253		173.0		0.256		
16.406		-189.7		0.006		7.9		0.002		174.8		0.256		177.0		0.259		
16.504		-183.9		-0.004		3.1		0.004		181.4		0.268		180.9		0.267		
16.602		-178.7		-0.013		-9.6		-0.011		183.1		0.266		183.9		0.278		
16.699		-175.6		0.000		-15.8		0.000		188.4		0.287		187.4		0.278		
16.797		-172.5		-0.002		-22.8		-0.008		191.9		0.277		192.2		0.280		
16.895		-163.3		-0.004		-29.8		-0.002		195.0		0.283		190.9		0.286		
16.992		-161.1		-0.013		-38.5		-0.011		198.5		0.287		197.8		0.293		
17.090		-158.4		-0.008		-46.0		-0.002		202.0		0.291		200.4		0.295		
17.188		-154.0		0.000		-50.4		0.000		203.3		0.306		201.3		0.308		
17.285		-147.9		0.004		-58.2		0.000		205.5		0.304		202.2		0.310		
17.383		-143.0		-0.004		-67.4		-0.015		206.4		0.298		201.7		0.299		
17.480		-140.8		-0.008		-72.7		-0.011		209.9		0.304		210.9		0.321		
17.578		-134.7		-0.008		-77.9		-0.004		209.9		0.308		207.4		0.310		
17.676		-132.0		-0.002		-84.9		-0.019		209.0		0.308		211.7		0.308		
17.773		-125.4		0.000		-90.2		0.000		212.0		0.300		212.2		0.310		
17.871		-122.3		0.000		-96.3		0.000		212.9		0.313		211.3		0.314		
17.969		-116.6		-0.013		-103.3		-0.006		213.8		0.310		214.8		0.312		
18.066		-112.2		-0.008		-107.7		-0.008		212.9		0.315		211.3		0.316		
18.164		-108.7		0.000		-111.2		0.002		212.0		0.310		213.0		0.321		
18.262		-105.6		-0.004		-113.8		-0.002		213.4		0.310		212.2		0.316		
18.359		-99.4		0.002		-118.2		0.002		210.3		0.310		211.7		0.323		
18.457		-95.5		-0.008		-127.9		-0.002		215.1		0.315		212.2		0.316		
18.555		-87.6		-0.006		-128.7		-0.002		213.8		0.327		212.6		0.323		
18.652		-81.4		0.006		-131.8		-0.011		212.0		0.313		217.0		0.308		
18.750		-76.1		-0.019		-138.4		0.004		215.1		0.317		213.9		0.303		
18.848		-71.7		0.000		-140.6		-0.006		211.6		0.315		213.0		0.318		
18.945		-67.3		-0.002		-141.9		0.002		212.5		0.310		214.8		0.308		
19.043		-60.3		0.002		-145.4		0.004		209.9		0.315		213.5		0.314		
19.141		-54.6		-0.006		-150.6		-0.002		213.8		0.306		210.9		0.316		
19.238		-44.0		-0.002		-157.6		-0.011		206.8		0.313		208.7		0.306		
19.336		-38.3		-0.002		-158.9		-0.013		204.6		0.306		207.4		0.306		
19.434		-29.5		-0.004		-163.8		-0.008		205.5		0.308		205.2		0.306		
19.531		-24.2		0.008		-168.6		0.004		202.4		0.306		199.6		0.312		
19.629		-16.3		0.000		-170.8		-0.004		195.8		0.298		196.5		0.291		
19.727		-13.2		-0.004		-177.3		0.000		191.5		0.281		191.3		0.280		
19.824		-4.0		-0.004		-182.2		-0.013		184.0		0.281		185.2		0.276		
19.922		2.2		-0.008		-186.5		-0.008		180.1		0.270		180.0		0.259		
20.020		11.4		0.002		-191.4		0.008		174.8		0.256		174.8		0.261		
20.117		17.6		-0.006		-192.2		-0.002		174.4		0.256		170.4		0.259		
20.215		28.2		-0.013		-195.7		-0.008		163.0		0.253		167.4		0.248		
20.313		35.2		0.006		-195.3		-0.006		161.2		0.230		163.0		0.246		
20.410		41.8		0.011		-201.0		-0.011		156.8		0.232		157.8		0.229		
20.508		50.6		-0.002		-201.4		0.008		156.4		0.226		153.9		0.214		
20.605		56.3		-0.004		-203.6		-0.004		150.7		0.222		147.8		0.212		
20.703		62.5		0.006		-207.1		-0.006		146.8		0.213		143.5		0.209		
20.801		67.3		0.002		-209.3		0.006		137.6		0.192		138.3		0.216		
20.898		75.7		0.004		-211.1		-0.004		133.6		0.209		133.5		0.205		
20.996		82.7		0.011		-209.3		-0.002		130.6		0.192		129.6		0.190		
21.094		92.8		-0.008		-215.4		-0.002		126.2		0.190		126.1		0.188		
21.191		94.6		0.002		-212.8		-0.006		122.7		0.184		120.9		0.184		
21.289		100.3		0.000		-212.4		-0.006		114.8		0.163		116.1		0.175		
21.387		102.5		0.002		-213.2		-0.011		109.5		0.163		110.4		0.162		
21.484		109.1		0.013		-213.7		-0.011		106.9		0.133		108.3		0.169		
21.582		114.9		0.158		-212.4		-0.006		105.1		-0.008		113.5		0.156		
21.680		118.4		0.177		-216.3		-0.004		100.3		-0.004		118.7		0.173		
21.777		121.9		0.167		-215.9		-0.008		94.6		-0.011		121.7		0.188		
21.875		128.1		0.186		-217.2		-0.015		88.5		-0.006		126.1		0.190		
21.973		129.4		0.198		-214.6		-0.002		85.0		-0.006		130.9		0.192		
22.070		137.3		0.202		-216.7		-0.008		78.0		0.000		135.7		0.192		
22.168		137.7		0.207		-214.1		0.002		71.9		-0.004		138.3		0.205		
22.266		142.1		0.205		-217.2		0.000		67.5		-0.011		140.4		0.197		
22.363		143.9		0.200		-213.7		-0.006		61.8		0.000		147.0		0.203		
22.461		151.4		0.213		-214.1		0.011		53.5		0.004		149.1		0.216		
22.559		155.8		0.221		-213.2		0.013		46.9		-0.004		154.8		0.233		
22.656		159.7		0.236		-208.9		-0.006		38.1		-0.006		158.3		0.229		
22.754		165.0		0.240		-204.5		0.004		33.3		0.000		163.0		0.241		
22.852		169.0		0.240		-198.4		-0.008		24.1		0.000		168.7		0.237		
22.949		169.0		0.253		-194.9		0.006		20.2		0.000		171.3		0.250		
23.047		174.7		0.261		-187.0		-0.013		10.5		-0.006		177.8		0.265		
23.145		181.3		0.272		-184.3		0.004		7.9		-0.004		180.9		0.276		
23.242		184.4		0.268		-181.7		0.000		-4.4		-0.006		181.7		0.265		
23.340		185.3		0.270		-174.3		-0.011		-12.3		-0.006		186.1		0.274		
23.438		189.2		0.285		-174.7		0.002		-19.7		0.004		189.1		0.282		
23.535		194.9		0.287		-167.3		-0.002		-27.2		-0.004		193.0		0.293		
23.633		194.5		0.287		-163.3		-0.006		-35.0		-0.004		194.3		0.282		
23.730		200.7		0.295		-159.4		-0.002		-42.9		0.002		198.3		0.288		
23.828		203.3		0.310		-155.4		-0.006		-50.4		0.002		198.3		0.295		
23.926		201.5		0.306		-150.2		-0.006		-59.1		0.000		201.3		0.299		
24.023		202.0		0.304		-142.7		0.004		-61.3		-0.008		203.5		0.308		
24.121		209.0		0.306		-137.9		-0.002		-69.7		-0.008		207.8		0.312		
24.219		205.5		0.312		-133.1		-0.008		-74.5		0.008		210.0		0.301		
24.316		209.9		0.308		-131.8		-0.002		-79.7		-0.002		208.7		0.316		
24.414		211.2		0.314		-126.5		0.006		-87.2		0.004		210.0		0.310		
24.512		211.7		0.308		-124.4		0.008		-94.6		-0.006		211.3		0.303		
24.609		211.2		0.312		-120.4		-0.011		-97.7		0.000		213.0		0.303		
24.707		212.5		0.312		-112.1		0.006		-107.3		-0.011		208.7		0.318		
24.805		211.7		0.316		-108.6		-0.004		-111.3		-0.002		210.9		0.316		
24.902		214.7		0.310		-103.8		0.004		-112.2		-0.004		210.9		0.327		
25.000		213.0		0.321		-101.6		-0.008		-119.6		-0.002		211.3		0.312		
25.098		213.0		0.306		-93.7		0.006		-119.2		-0.002		211.7		0.327		
25.195		212.1		0.321		-87.1		-0.004		-125.7		-0.006		213.9		0.306		
25.293		213.9		0.310		-81.9		-0.011		-131.4		-0.004		213.9		0.318		
25.391		214.7		0.321		-77.5		-0.008		-134.1		-0.011		217.0		0.318		
25.488		213.0		0.310		-73.6		0.004		-137.1		-0.002		214.3		0.316		
25.586		213.9		0.312		-68.3		-0.002		-142.4		-0.006		211.7		0.312		
25.684		213.9		0.316		-61.3		0.004		-146.3		0.004		213.0		0.312		
25.781		211.7		0.316		-52.5		0.004		-150.3		-0.021		208.7		0.308		
25.879		211.2		0.314		-44.7		-0.013		-157.3		-0.002		208.7		0.297		
25.977		210.8		0.297		-37.7		-0.002		-156.4		-0.006		205.2		0.303		
26.074		203.3		0.291		-28.9		0.002		-165.6		0.008		203.0		0.293		
26.172		199.3		0.291		-26.7		-0.011		-166.0		-0.004		198.7		0.301		
26.270		194.5		0.291		-21.9		-0.013		-169.1		-0.006		195.7		0.280		
26.367		191.0		0.276		-14.0		-0.011		-177.0		-0.004		188.7		0.274		
26.465		183.9		0.270		-4.8		-0.002		-182.7		-0.011		182.6		0.269		
26.563		176.9		0.268		4.8		0.002		-184.4		0.002		179.1		0.276		
26.660		177.8		0.264		10.5		0.008		-188.4		0.004		177.4		0.267		
26.758		172.9		0.257		20.1		0.000		-188.8		0.000		171.3		0.263		
26.855		166.8		0.253		26.3		0.000		-194.1		-0.002		165.2		0.244		
26.953		163.3		0.234		34.2		-0.008		-197.6		-0.011		160.4		0.244		
27.051		159.7		0.236		41.2		0.004		-202.0		-0.004		158.7		0.235		
27.148		154.9		0.221		45.5		0.000		-203.3		0.006		153.9		0.235		
27.246		148.7		0.224		56.9		0.015		-203.7		0.000		149.1		0.226		
27.344		147.0		0.221		63.9		0.011		-208.1		0.002		142.6		0.207		
27.441		141.3		0.209		70.9		0.013		-208.1		0.000		139.6		0.212		
27.539		136.4		0.202		74.4		0.011		-209.0		-0.004		134.8		0.201		
27.637		130.7		0.196		79.3		0.000		-212.9		-0.004		128.7		0.188		
27.734		128.1		0.175		87.1		0.002		-213.8		0.000		127.8		0.190		
27.832		125.4		0.181		92.0		0.006		-211.2		-0.008		123.5		0.182		
27.930		119.3		0.177		99.4		-0.006		-211.2		-0.013		117.0		0.177		
28.027		115.3		0.167		103.8		0.011		-212.5		-0.006		112.6		0.173		
28.125		110.9		0.158		107.7		-0.015		-214.2		-0.006		110.9		0.173		
28.223		109.6		0.034		110.3		0.127		-213.4		0.002		107.8		0.162		
28.320		101.2		-0.008		117.4		0.169		-215.1		-0.004		116.5		0.169		
28.418		95.5		-0.002		119.1		0.177		-215.6		-0.008		119.1		0.175		
28.516		92.0		-0.011		126.1		0.192		-215.1		-0.006		126.1		0.188		
28.613		82.3		0.000		128.7		0.198		-212.9		0.006		131.7		0.201		
28.711		82.3		0.002		137.1		0.194		-216.0		-0.002		136.1		0.194		
28.809		75.7		-0.004		137.9		0.198		-212.0		-0.002		138.7		0.197		
28.906		71.3		0.008		137.9		0.207		-215.6		-0.006		141.3		0.205		
29.004		64.7		0.002		143.6		0.215		-213.4		0.002		147.4		0.218		
29.102		57.6		-0.011		148.9		0.222		-212.5		-0.006		151.3		0.222		
29.199		49.3		0.002		154.1		0.222		-214.2		-0.006		151.3		0.224		
29.297		41.8		0.004		156.3		0.243		-208.5		0.000		158.3		0.226		
29.395		33.9		0.008		161.6		0.224		-208.5		0.000		163.5		0.241		
29.492		29.9		-0.006		164.6		0.236		-200.2		0.002		166.5		0.239		
29.590		20.2		-0.002		167.7		0.247		-198.9		-0.004		171.7		0.237		
29.688		14.1		-0.017		173.8		0.253		-194.1		0.008		171.7		0.246		
29.785		7.0		0.013		176.0		0.270		-187.1		-0.006		176.5		0.259		
29.883		0.0		-0.004		183.9		0.270		-183.6		-0.002		180.9		0.263		
29.980		-8.8		-0.002		184.8		0.266		-178.3		0.004		185.7		0.269		
30.078		-18.0		-0.004		187.8		0.287		-173.5		-0.002		187.4		0.297		
30.176		-26.4		0.004		194.4		0.289		-168.2		-0.004		193.0		0.284		
30.273		-32.1		-0.002		194.9		0.281		-165.6		-0.002		198.7		0.303		
30.371		-39.6		-0.004		197.5		0.296		-160.4		-0.004		200.4		0.295		
30.469		-45.8		0.000		199.7		0.289		-156.0		-0.021		200.0		0.295		
30.566		-53.2		-0.004		203.6		0.323		-152.9		-0.002		199.6		0.301		
30.664		-60.3		-0.011		202.3		0.306		-145.0		-0.006		206.1		0.288		
30.762		-67.3		-0.006		206.7		0.298		-142.8		0.008		205.2		0.297		
30.859		-76.6		-0.006		205.8		0.315		-134.9		-0.002		207.0		0.323		
30.957		-82.7		-0.008		207.6		0.312		-132.7		0.000		210.4		0.316		
31.055		-86.2		-0.008		208.4		0.321		-127.9		-0.013		210.0		0.306		
31.152		-94.2		-0.015		211.9		0.321		-121.4		-0.004		209.6		0.306		
31.250		-99.9		-0.006		212.4		0.319		-118.7		-0.008		212.6		0.314		
31.348		-107.4		-0.004		213.7		0.304		-113.0		-0.006		213.0		0.312		
31.445		-106.9		-0.006		216.7		0.302		-106.5		-0.006		211.3		0.312		
31.543		-111.3		-0.008		210.6		0.317		-106.5		-0.015		215.2		0.323		
31.641		-117.1		-0.004		213.7		0.317		-99.5		-0.008		213.9		0.314		
31.738		-122.3		-0.013		212.8		0.310		-93.8		0.006		214.3		0.318		
31.836		-127.2		0.000		214.1		0.310		-92.4		-0.017		211.3		0.303		
31.934		-128.5		-0.008		213.2		0.304		-85.9		0.004		214.3		0.318		
32.031		-133.3		0.002		212.4		0.323		-77.1		0.002		214.3		0.312		
32.129		-136.9		-0.008		210.6		0.321		-75.4		-0.004		215.2		0.308		
32.227		-141.7		-0.004		213.2		0.319		-69.7		-0.002		215.7		0.310		
32.324		-144.8		-0.008		209.7		0.308		-61.8		-0.011		213.5		0.323		
32.422		-148.7		-0.011		209.7		0.315		-55.6		0.008		210.9		0.312		
32.520		-152.7		-0.013		213.7		0.325		-51.7		0.000		213.0		0.306		
32.617		-159.7		-0.013		208.0		0.308		-39.4		-0.006		208.3		0.314		
32.715		-162.8		0.002		204.5		0.300		-32.0		-0.002		203.0		0.297		
32.813		-166.8		-0.002		198.8		0.296		-26.7		0.013		195.7		0.284		
32.910		-172.9		-0.011		194.0		0.296		-20.2		-0.008		196.5		0.293		
33.008		-174.7		-0.004		189.2		0.283		-13.6		-0.006		189.6		0.284		
33.105		-177.3		-0.002		187.8		0.264		-7.0		0.004		183.9		0.269		
33.203		-183.5		-0.011		180.4		0.270		2.2		0.002		177.8		0.265		
33.301		-183.9		-0.002		173.4		0.249		10.5		-0.006		177.4		0.256		
33.398		-189.7		-0.004		171.6		0.253		16.2		0.006		170.0		0.252		
33.496		-194.9		-0.008		166.8		0.245		25.4		-0.004		166.5		0.244		
33.594		-196.3		-0.011		162.5		0.243		32.9		0.000		160.0		0.226		
33.691		-197.1		0.000		158.9		0.234		42.1		0.002		159.6		0.235		
33.789		-197.6		0.004		152.8		0.232		47.8		0.011		153.0		0.222		
33.887		-201.1		-0.017		148.9		0.220		54.8		-0.002		148.7		0.233		
33.984		-205.1		-0.002		142.7		0.207		60.0		-0.013		142.6		0.199		
34.082		-207.3		0.008		139.7		0.217		67.5		-0.004		140.4		0.207		
34.180		-208.1		0.004		134.4		0.190		74.9		-0.002		133.9		0.201		
34.277		-209.5		0.011		129.2		0.188		80.6		0.002		130.9		0.197		
34.375		-212.5		-0.002		126.1		0.182		85.0		0.006		127.0		0.188		
34.473		-213.0		0.004		120.4		0.188		93.8		-0.011		122.6		0.182		
34.570		-212.5		-0.002		119.1		0.171		99.0		-0.004		117.8		0.182		
34.668		-214.3		-0.011		112.5		0.169		103.0		-0.004		113.9		0.177		
34.766		-212.5		-0.008		107.3		0.173		106.5		-0.006		107.8		0.162		
34.863		-212.5		0.000		109.0		0.046		106.5		0.137		107.0		0.158		
34.961		-213.9		0.000		102.0		0.006		113.9		0.163		113.5		0.160		
35.059		-211.7		0.002		94.1		0.004		117.4		0.173		118.7		0.169		
35.156		-212.5		0.004		88.9		-0.004		124.4		0.173		122.2		0.175		
35.254		-214.7		-0.002		84.9		-0.008		127.5		0.186		127.8		0.188		
35.352		-216.1		-0.017		79.3		0.002		131.0		0.196		132.2		0.190		
35.449		-214.7		-0.015		74.9		0.004		137.6		0.203		136.1		0.190		
35.547		-213.4		-0.008		66.1		-0.004		141.5		0.211		135.2		0.205		
35.645		-214.3		-0.008		59.1		-0.006		141.9		0.207		142.2		0.218		
35.742		-211.2		-0.019		49.5		0.002		146.3		0.230		149.1		0.216		
35.840		-210.3		0.004		43.8		-0.008		151.6		0.222		153.5		0.226		
35.938		-208.1		-0.013		36.3		0.002		156.4		0.237		157.4		0.231		
36.035		-205.1		-0.013		31.1		-0.006		161.7		0.239		160.4		0.248		
36.133		-198.9		-0.013		23.6		0.000		165.6		0.243		164.8		0.241		
36.230		-197.6		-0.004		18.0		-0.002		172.6		0.249		173.0		0.250		
36.328		-192.3		0.008		12.3		0.002		172.6		0.258		176.1		0.259		
36.426		-186.1		-0.002		4.8		-0.004		177.9		0.268		178.3		0.271		
36.523		-181.7		0.000		-1.3		-0.004		182.7		0.272		181.7		0.271		
36.621		-175.6		0.002		-9.2		-0.015		186.2		0.270		184.8		0.267		
36.719		-171.6		-0.017		-21.5		-0.011		190.6		0.285		192.6		0.276		
36.816		-169.9		-0.013		-28.5		-0.008		190.6		0.289		192.6		0.276		
36.914		-165.5		-0.002		-35.0		-0.006		194.5		0.279		193.9		0.284		
37.012		-160.6		0.004		-39.8		0.008		197.6		0.287		197.8		0.291		
37.109		-154.0		-0.004		-47.3		-0.006		201.1		0.296		200.9		0.286		
37.207		-151.8		-0.008		-55.6		-0.006		202.8		0.302		203.0		0.310		
37.305		-150.1		-0.004		-63.5		-0.002		204.2		0.306		205.2		0.288		
37.402		-141.7		-0.015		-69.2		-0.006		204.2		0.315		206.5		0.310		
37.500		-133.8		0.002		-74.9		-0.015		205.5		0.313		206.1		0.323		
37.598		-134.7		-0.008		-81.4		-0.006		206.4		0.310		208.7		0.306		
37.695		-130.3		-0.002		-86.7		-0.008		209.4		0.317		210.9		0.325		
37.793		-124.1		-0.002		-92.4		-0.013		212.5		0.319		211.7		0.314		
37.891		-118.8		-0.013		-99.4		-0.002		211.2		0.313		210.9		0.314		
37.988		-115.3		0.004		-102.5		-0.006		211.2		0.310		211.3		0.318		
38.086		-108.3		0.004		-109.9		0.013		212.9		0.308		215.2		0.299		
38.184		-109.6		0.002		-112.5		0.006		215.6		0.304		211.7		0.303		
38.281		-100.8		-0.013		-115.6		0.000		211.6		0.310		213.5		0.312		
38.379		-95.5		-0.015		-121.3		0.000		213.4		0.317		216.1		0.318		
38.477		-89.8		-0.002		-124.8		0.000		217.7		0.310		212.2		0.325		
38.574		-83.2		0.000		-131.4		-0.011		213.4		0.294		213.5		0.338		
38.672		-79.2		0.002		-135.3		-0.002		215.6		0.317		214.3		0.303		
38.770		-74.8		-0.004		-138.4		-0.008		212.0		0.315		215.2		0.325		
38.867		-70.4		-0.004		-142.3		-0.015		212.5		0.327		214.3		0.323		
38.965		-64.2		-0.004		-144.9		0.011		214.7		0.317		214.8		0.314		
39.063		-57.2		-0.002		-149.3		-0.013		211.6		0.306		213.9		0.310		
39.160		-51.0		-0.002		-151.1		-0.006		209.4		0.317		210.4		0.308		
39.258		-41.4		-0.008		-158.9		0.006		213.4		0.298		210.0		0.316		
39.355		-36.1		0.000		-162.0		0.004		207.7		0.310		208.3		0.310		
39.453		-28.6		-0.006		-167.3		-0.006		202.8		0.310		203.0		0.293		
39.551		-23.3		0.000		-169.0		0.011		199.3		0.300		199.1		0.295		
39.648		-15.0		0.000		-175.2		-0.011		192.8		0.291		196.1		0.288		
39.746		-10.6		-0.004		-179.1		-0.008		186.2		0.281		187.4		0.278		
39.844		1.3		0.002		-180.0		0.002		180.9		0.277		184.3		0.263		
39.941		8.4		0.000		-185.7		-0.006		178.3		0.251		178.3		0.254		
40.039		12.3		-0.008		-188.7		-0.008		171.3		0.260		173.0		0.265		
40.137		23.3		0.000		-195.7		-0.011		170.9		0.247		166.5		0.246		
40.234		28.6		-0.006		-195.3		-0.004		164.7		0.256		166.1		0.250		
40.332		36.1		0.000		-199.7		0.000		159.9		0.237		160.0		0.246		
40.430		42.7		0.004		-201.4		-0.008		155.5		0.239		154.8		0.237		
40.527		50.2		0.000		-205.4		-0.011		151.6		0.220		150.9		0.222		
40.625		59.4		-0.004		-204.9		-0.006		149.4		0.222		146.1		0.226		
40.723		64.2		0.002		-209.7		-0.015		142.8		0.220		139.6		0.222		
40.820		71.7		0.000		-206.7		0.000		138.0		0.205		138.3		0.192		
40.918		77.9		0.000		-209.3		0.002		133.6		0.190		134.8		0.194		
41.016		87.1		0.000		-211.5		0.000		130.6		0.194		129.6		0.192		
41.113		92.4		0.006		-211.5		-0.002		125.3		0.182		125.2		0.188		
41.211		97.2		0.013		-214.6		-0.015		120.5		0.177		118.7		0.192		
41.309		104.3		0.006		-215.0		0.000		113.5		0.167		112.6		0.156		
41.406		107.8		0.006		-215.0		-0.006		110.4		0.156		110.9		0.158		
41.504		108.7		0.084		-210.2		-0.002		109.5		0.059		106.5		0.158		
41.602		115.3		0.177		-213.2		-0.002		99.9		0.006		113.5		0.182		
41.699		118.4		0.175		-214.6		0.002		95.1		0.011		119.1		0.184		
41.797		125.4		0.186		-215.9		0.013		89.4		0.002		126.1		0.203		
41.895		129.4		0.194		-218.5		-0.017		86.7		0.002		127.0		0.179		
41.992		132.5		0.194		-215.4		-0.011		84.1		0.000		134.3		0.186		
42.090		136.0		0.198		-214.6		-0.004		77.5		0.006		138.7		0.203		
42.188		139.1		0.211		-215.9		-0.006		72.3		0.000		138.3		0.197		
42.285		144.3		0.215		-214.6		-0.002		64.0		-0.006		143.5		0.203		
42.383		147.0		0.228		-211.5		0.006		56.5		-0.011		147.8		0.216		
42.480		153.6		0.228		-212.8		0.006		53.0		-0.006		152.2		0.218		
42.578		159.7		0.232		-207.1		-0.013		40.7		0.002		157.4		0.229		
42.676		158.9		0.242		-206.2		0.000		37.7		-0.004		158.3		0.231		
42.773		168.1		0.242		-201.9		-0.002		31.5		0.006		167.0		0.254		
42.871		167.2		0.249		-195.7		-0.006		19.7		0.011		168.3		0.265		
42.969		175.6		0.251		-192.2		-0.006		13.1		0.000		172.6		0.261		
43.066		174.7		0.272		-185.2		-0.013		10.1		-0.004		175.7		0.263		
43.164		180.4		0.268		-180.8		-0.002		1.3		0.000		180.9		0.259		
43.262		183.5		0.276		-177.3		-0.006		-8.8		-0.021		183.5		0.274		
43.359		188.8		0.272		-172.5		-0.006		-17.1		-0.004		187.8		0.282		
43.457		188.3		0.287		-169.0		-0.011		-21.9		0.006		190.4		0.288		
43.555		192.3		0.283		-163.8		-0.004		-30.7		-0.004		193.0		0.284		
43.652		196.7		0.283		-159.4		-0.006		-37.7		-0.004		195.7		0.286		
43.750		199.8		0.289		-158.1		-0.011		-47.8		-0.013		197.8		0.301		
43.848		204.2		0.304		-151.5		0.006		-48.6		0.011		201.7		0.295		
43.945		200.7		0.304		-148.4		-0.008		-58.7		0.004		205.2		0.295		
44.043		206.8		0.302		-142.7		0.004		-64.8		-0.002		206.1		0.306		
44.141		206.4		0.297		-135.7		0.008		-74.0		-0.004		206.5		0.312		
44.238		213.0		0.310		-134.4		-0.002		-79.3		0.000		206.5		0.303		
44.336		209.9		0.314		-125.7		0.004		-83.2		-0.008		212.6		0.306		
44.434		209.9		0.308		-127.4		0.008		-91.1		-0.002		209.1		0.312		
44.531		211.2		0.316		-121.7		-0.006		-95.1		-0.004		211.3		0.321		
44.629		212.1		0.302		-118.7		-0.004		-103.0		0.000		211.3		0.318		
44.727		213.9		0.312		-112.5		0.000		-105.1		-0.004		213.0		0.321		
44.824		212.5		0.318		-105.1		0.000		-110.4		0.004		212.6		0.318		
44.922		212.5		0.312		-104.2		-0.019		-115.7		-0.002		213.0		0.308		
45.020		213.0		0.312		-98.1		-0.011		-124.0		-0.017		213.0		0.321		
45.117		212.5		0.318		-91.5		-0.002		-124.4		0.000		211.7		0.329		
45.215		214.3		0.318		-87.6		-0.008		-129.2		-0.002		213.0		0.318		
45.313		215.2		0.327		-78.4		0.017		-134.1		-0.006		210.9		0.314		
45.410		214.7		0.308		-74.9		-0.015		-136.3		-0.004		210.0		0.312		
45.508		213.0		0.316		-70.9		-0.006		-140.2		0.002		215.2		0.306		
45.605		213.9		0.318		-63.1		-0.002		-144.1		-0.002		212.6		0.323		
45.703		214.3		0.314		-55.2		0.002		-147.2		-0.008		213.5		0.310		
45.801		208.6		0.316		-47.3		-0.002		-154.2		0.000		209.6		0.306		
45.898		205.5		0.308		-41.6		-0.019		-158.2		-0.004		207.0		0.303		
45.996		206.4		0.302		-35.5		-0.015		-161.2		0.000		204.8		0.297		
46.094		203.7		0.302		-28.5		-0.008		-169.1		-0.006		202.6		0.297		
46.191		195.8		0.285		-23.6		-0.002		-168.2		0.004		195.7		0.286		
46.289		190.5		0.274		-12.7		-0.021		-175.7		-0.006		191.7		0.286		
46.387		187.9		0.272		-9.6		-0.013		-179.2		-0.004		187.0		0.280		
46.484		183.9		0.268		-2.6		0.004		-179.6		-0.015		182.2		0.265		
46.582		178.2		0.268		5.3		0.002		-182.7		0.004		173.9		0.248		
46.680		176.9		0.257		12.7		0.002		-189.3		0.004		172.6		0.256		
46.777		165.5		0.245		24.5		-0.006		-195.8		-0.006		168.7		0.250		
46.875		167.7		0.242		27.6		0.004		-193.6		0.002		164.8		0.241		
46.973		160.2		0.249		35.0		0.015		-199.8		-0.004		161.7		0.244		
47.070		158.4		0.236		42.9		-0.002		-199.3		-0.002		155.7		0.226		
47.168		151.8		0.232		51.2		0.000		-204.6		-0.004		152.6		0.220		
47.266		147.9		0.217		58.7		0.000		-206.8		0.000		147.8		0.226		
47.363		145.2		0.215		63.1		0.000		-208.5		-0.013		141.3		0.205		
47.461		140.4		0.207		72.2		-0.006		-211.6		-0.013		137.8		0.207		
47.559		135.1		0.213		77.5		0.002		-213.4		-0.006		134.3		0.201		
47.656		129.4		0.190		84.1		0.013		-212.5		-0.019		127.0		0.194		
47.754		126.3		0.183		88.5		-0.011		-211.6		-0.002		124.3		0.192		
47.852		121.9		0.181		97.2		-0.002		-212.5		0.000		121.7		0.173		
47.949		114.9		0.177		101.1		-0.006		-213.8		-0.011		114.8		0.160		
48.047		113.1		0.164		104.7		0.008		-213.4		-0.006		110.9		0.158		
48.145		111.3		0.127		109.5		0.038		-211.6		0.015		109.1		0.160		
48.242		105.2		-0.004		112.5		0.171		-212.0		0.011		114.3		0.175		
48.340		100.3		0.006		120.0		0.190		-216.0		-0.017		114.3		0.173		
48.438		93.7		-0.015		123.0		0.190		-211.6		0.002		123.0		0.182		
48.535		88.4		-0.004		126.5		0.198		-212.9		0.002		127.0		0.192		
48.633		79.2		-0.011		130.9		0.194		-213.4		0.002		133.0		0.197		
48.730		76.1		-0.006		131.8		0.203		-213.8		-0.013		135.2		0.205		
48.828		73.9		0.000		137.1		0.207		-214.2		-0.006		137.8		0.197		
48.926		66.0		-0.002		143.2		0.209		-216.0		-0.008		141.7		0.216		
49.023		59.0		-0.004		145.8		0.220		-213.4		-0.011		149.1		0.212		
49.121		53.2		0.002		150.6		0.226		-211.6		-0.015		148.3		0.233		
49.219		47.1		-0.017		151.1		0.236		-212.5		-0.004		153.5		0.222		
49.316		37.8		0.006		160.7		0.226		-208.1		0.006		158.7		0.231		
49.414		28.2		0.006		164.6		0.249		-206.4		-0.019		162.2		0.241		
49.512		24.2		-0.002		167.3		0.253		-199.8		-0.011		168.3		0.248		
49.609		15.8		0.000		173.4		0.266		-195.4		-0.008		173.9		0.254		
49.707		11.0		-0.008		173.8		0.262		-188.8		-0.002		175.7		0.261		
49.805		5.7		0.006		177.8		0.258		-185.3		-0.013		177.8		0.263		
49.902		-4.4		-0.004		181.7		0.274		-181.8		0.002		183.9		0.267		
