Oscilloscope Trace Export		
Festo Didactic LVDAC-EMS 3.19		
		
		
		Ch1		Ch2		Ch3		Ch4		Ch5		Ch6		Ch7		Ch8		
Time 		E1		I1		E2		I2		E3		I3		E4		I4		
(ms)		(V)		(A)		(V)		(A)		(V)		(A)		(V)		(A)		
0.000		5.3		-0.008		-184.8		-0.268		177.0		0.266		362.2		0.267		
0.098		15.4		0.006		-186.5		-0.266		171.7		0.260		358.3		0.263		
0.195		21.6		-0.002		-192.2		-0.262		167.8		0.260		360.0		0.261		
0.293		29.9		-0.011		-195.3		-0.277		163.0		0.266		355.7		0.261		
0.391		36.1		0.000		-199.2		-0.270		158.6		0.275		356.1		0.248		
0.488		44.9		-0.002		-199.7		-0.270		154.7		0.270		355.2		0.250		
0.586		50.6		0.006		-206.2		-0.262		151.6		0.258		350.4		0.261		
0.684		58.1		0.000		-203.6		-0.264		145.5		0.258		350.0		0.244		
0.781		66.0		0.002		-208.4		-0.268		142.8		0.264		347.0		0.256		
0.879		75.2		-0.004		-209.7		-0.249		134.5		0.256		344.3		0.254		
0.977		81.4		-0.006		-209.7		-0.247		131.0		0.251		342.6		0.241		
1.074		86.2		-0.008		-210.6		-0.239		126.6		0.253		339.6		0.241		
1.172		89.8		0.006		-212.8		-0.260		125.7		0.247		336.1		0.246		
1.270		98.1		-0.002		-212.8		-0.247		117.9		0.241		327.8		0.246		
1.367		103.4		0.000		-214.1		-0.239		113.0		0.237		327.4		0.231		
1.465		107.4		-0.017		-215.4		-0.253		108.2		0.228		320.9		0.220		
1.563		107.4		0.080		-214.6		-0.241		106.9		0.131		320.4		0.224		
1.660		114.4		0.232		-213.7		-0.249		103.0		0.000		326.1		0.250		
1.758		118.4		0.242		-215.4		-0.255		99.0		0.002		331.3		0.246		
1.855		125.4		0.242		-214.6		-0.247		91.6		0.006		337.0		0.261		
1.953		127.2		0.249		-217.2		-0.255		87.6		0.002		341.7		0.248		
2.051		133.3		0.253		-216.3		-0.247		78.4		0.002		346.5		0.256		
2.148		135.1		0.249		-215.0		-0.255		74.9		-0.002		348.3		0.261		
2.246		139.1		0.240		-215.0		-0.251		74.5		-0.002		353.0		0.248		
2.344		140.4		0.249		-215.9		-0.251		67.0		-0.002		353.5		0.256		
2.441		147.9		0.270		-214.1		-0.260		58.3		0.002		357.8		0.263		
2.539		152.7		0.274		-210.6		-0.272		50.8		0.004		359.6		0.256		
2.637		154.5		0.257		-209.3		-0.264		43.4		0.006		362.6		0.265		
2.734		159.7		0.261		-204.9		-0.270		37.2		-0.002		362.2		0.256		
2.832		165.9		0.257		-199.7		-0.266		29.4		0.000		363.0		0.265		
2.930		167.2		0.266		-195.7		-0.277		23.2		0.000		362.6		0.271		
3.027		171.2		0.251		-190.5		-0.268		16.6		0.000		360.9		0.269		
3.125		179.1		0.259		-185.2		-0.272		10.1		0.008		357.8		0.252		
3.223		178.2		0.264		-180.4		-0.266		3.5		0.006		357.8		0.259		
3.320		183.9		0.255		-176.5		-0.270		-5.3		0.000		359.6		0.252		
3.418		188.8		0.257		-171.6		-0.264		-16.6		-0.008		356.5		0.263		
3.516		190.1		0.272		-169.9		-0.260		-24.1		-0.008		357.0		0.269		
3.613		191.9		0.259		-165.5		-0.268		-29.4		-0.002		356.5		0.254		
3.711		195.4		0.257		-160.3		-0.268		-38.6		0.004		353.5		0.261		
3.809		198.0		0.251		-156.3		-0.260		-47.3		0.004		352.6		0.259		
3.906		201.1		0.257		-151.5		-0.258		-52.1		0.004		351.7		0.261		
4.004		202.9		0.255		-148.0		-0.264		-60.0		0.000		349.6		0.261		
4.102		203.7		0.249		-142.7		-0.253		-65.7		-0.002		345.7		0.259		
4.199		205.5		0.240		-136.6		-0.245		-74.5		0.004		342.2		0.250		
4.297		210.8		0.257		-131.8		-0.247		-77.5		0.000		340.0		0.237		
4.395		211.2		0.242		-126.5		-0.253		-80.6		0.006		339.6		0.239		
4.492		213.4		0.236		-125.7		-0.247		-91.1		0.004		333.5		0.233		
4.590		209.9		0.240		-120.4		-0.255		-96.8		-0.002		330.4		0.241		
4.688		211.7		0.240		-114.3		-0.243		-103.0		-0.002		325.2		0.237		
4.785		209.9		0.242		-110.3		-0.236		-103.8		-0.013		318.3		0.229		
4.883		212.1		0.224		-109.5		-0.186		-108.2		-0.051		316.5		0.226		
4.980		210.3		0.224		-101.6		0.000		-115.2		-0.251		326.1		0.235		
5.078		215.6		0.242		-97.2		0.011		-119.2		-0.241		330.0		0.222		
5.176		216.1		0.245		-91.1		0.006		-121.8		-0.251		333.0		0.235		
5.273		212.5		0.253		-87.1		0.000		-123.5		-0.249		334.8		0.244		
5.371		212.5		0.242		-82.8		0.002		-130.1		-0.264		343.0		0.254		
5.469		215.6		0.251		-77.9		-0.017		-133.6		-0.264		348.3		0.241		
5.566		215.2		0.255		-71.8		0.000		-136.7		-0.258		349.6		0.269		
5.664		211.7		0.255		-64.4		0.000		-141.9		-0.277		352.6		0.256		
5.762		216.1		0.259		-56.5		-0.002		-145.0		-0.258		356.5		0.261		
5.859		212.1		0.253		-51.7		0.004		-150.7		-0.277		362.2		0.263		
5.957		208.6		0.266		-42.9		-0.006		-158.2		-0.270		363.9		0.274		
6.055		206.8		0.261		-35.5		-0.011		-161.2		-0.266		363.5		0.254		
6.152		201.1		0.261		-30.2		0.004		-165.2		-0.268		362.6		0.263		
6.250		199.8		0.257		-23.6		-0.015		-170.4		-0.262		363.0		0.274		
6.348		191.4		0.268		-18.0		-0.011		-174.4		-0.281		362.2		0.265		
6.445		185.7		0.261		-8.8		0.000		-176.1		-0.272		360.0		0.269		
6.543		181.3		0.255		-1.8		0.004		-179.2		-0.260		360.9		0.259		
6.641		176.0		0.264		8.3		-0.006		-184.4		-0.270		361.3		0.274		
6.738		177.8		0.259		14.4		0.000		-188.8		-0.258		359.6		0.259		
6.836		171.6		0.266		19.3		0.004		-191.5		-0.275		357.4		0.254		
6.934		166.3		0.272		28.9		-0.011		-194.1		-0.264		356.1		0.265		
7.031		163.7		0.259		35.0		-0.004		-195.4		-0.268		355.2		0.244		
7.129		159.3		0.257		44.2		0.002		-202.0		-0.266		353.5		0.261		
7.227		153.6		0.251		50.4		0.004		-201.5		-0.258		350.0		0.254		
7.324		147.0		0.242		56.9		0.000		-204.2		-0.264		350.9		0.263		
7.422		142.1		0.255		64.8		-0.004		-206.4		-0.262		346.1		0.250		
7.520		137.3		0.255		70.5		0.002		-208.5		-0.253		342.6		0.256		
7.617		133.3		0.245		77.5		0.002		-210.3		-0.253		341.7		0.241		
7.715		128.9		0.240		81.4		-0.006		-212.0		-0.256		338.3		0.248		
7.813		127.6		0.242		88.9		0.000		-211.2		-0.245		335.2		0.244		
7.910		122.3		0.242		95.0		0.008		-209.9		-0.262		332.6		0.244		
8.008		117.9		0.240		100.7		0.011		-212.9		-0.253		324.3		0.239		
8.105		111.8		0.236		105.5		-0.011		-214.2		-0.241		323.0		0.239		
8.203		106.5		0.192		107.3		0.040		-212.5		-0.222		319.6		0.246		
8.301		110.0		-0.036		106.8		0.279		-211.6		-0.234		330.4		0.231		
8.398		100.8		-0.008		116.9		0.232		-212.0		-0.245		330.4		0.239		
8.496		96.4		-0.002		122.2		0.243		-213.8		-0.253		335.7		0.229		
8.594		87.6		-0.011		125.7		0.264		-212.5		-0.258		340.9		0.252		
8.691		81.0		0.000		127.9		0.253		-212.9		-0.264		343.9		0.254		
8.789		81.8		-0.011		131.4		0.262		-214.7		-0.251		345.7		0.254		
8.887		76.1		-0.004		135.7		0.247		-214.7		-0.262		350.0		0.261		
8.984		67.3		-0.015		140.6		0.255		-215.1		-0.260		352.2		0.271		
9.082		61.6		0.000		144.1		0.260		-214.2		-0.266		354.8		0.261		
9.180		53.2		0.004		148.0		0.255		-213.8		-0.277		360.4		0.256		
9.277		46.6		0.002		153.3		0.277		-210.3		-0.262		364.8		0.267		
9.375		40.0		0.000		155.9		0.270		-209.9		-0.272		367.0		0.261		
9.473		31.7		-0.006		159.8		0.258		-204.2		-0.277		369.1		0.271		
9.570		25.1		0.008		168.1		0.268		-200.7		-0.287		366.1		0.267		
9.668		18.0		0.000		169.0		0.270		-194.5		-0.275		363.9		0.269		
9.766		12.3		-0.008		171.2		0.262		-191.5		-0.272		363.0		0.269		
9.863		4.4		-0.011		174.7		0.262		-183.1		-0.270		359.1		0.265		
9.961		-3.1		0.011		182.2		0.260		-179.6		-0.260		358.3		0.256		
10.059		-10.1		0.004		185.7		0.262		-172.6		-0.266		360.9		0.261		
10.156		-18.9		-0.004		189.6		0.268		-170.4		-0.272		357.8		0.274		
10.254		-25.5		-0.013		193.5		0.255		-166.5		-0.268		355.7		0.267		
10.352		-37.0		-0.006		198.4		0.253		-159.0		-0.266		358.7		0.263		
10.449		-39.6		-0.011		198.4		0.264		-158.2		-0.262		353.0		0.254		
10.547		-48.0		0.000		201.0		0.262		-152.9		-0.256		351.7		0.261		
10.645		-58.5		-0.011		200.1		0.264		-149.0		-0.258		350.9		0.263		
10.742		-62.5		-0.013		202.3		0.253		-143.7		-0.256		350.0		0.267		
10.840		-70.0		-0.002		205.8		0.247		-138.0		-0.260		343.5		0.254		
10.938		-76.1		-0.002		205.8		0.241		-134.1		-0.256		339.6		0.241		
11.035		-83.2		-0.015		208.9		0.243		-133.2		-0.237		340.9		0.241		
11.133		-92.0		-0.008		210.6		0.243		-121.4		-0.249		334.3		0.241		
11.230		-95.5		-0.004		211.1		0.241		-121.8		-0.237		329.6		0.235		
11.328		-100.8		-0.013		212.4		0.241		-113.9		-0.243		326.5		0.241		
11.426		-103.4		-0.011		210.2		0.236		-112.6		-0.237		319.1		0.241		
11.523		-110.0		-0.046		211.1		0.232		-107.3		-0.180		321.7		0.239		
11.621		-114.4		-0.245		212.8		0.243		-104.7		0.002		326.1		0.231		
11.719		-119.3		-0.240		213.2		0.232		-99.5		0.002		331.7		0.248		
11.816		-123.7		-0.253		214.6		0.239		-92.4		-0.002		337.4		0.244		
11.914		-127.6		-0.242		211.9		0.253		-87.2		-0.002		341.3		0.248		
12.012		-130.7		-0.278		211.5		0.251		-84.6		-0.004		347.8		0.259		
12.109		-134.7		-0.255		212.8		0.264		-78.4		0.013		348.7		0.246		
12.207		-136.0		-0.264		211.9		0.260		-75.8		-0.004		350.0		0.261		
12.305		-137.7		-0.266		208.0		0.249		-68.3		-0.006		353.5		0.254		
12.402		-145.7		-0.266		213.2		0.255		-58.7		-0.019		355.7		0.269		
12.500		-147.9		-0.268		207.1		0.274		-49.9		-0.011		359.1		0.256		
12.598		-151.4		-0.276		207.6		0.270		-47.8		0.002		364.8		0.267		
12.695		-154.9		-0.280		206.7		0.264		-39.0		0.002		361.7		0.265		
12.793		-161.5		-0.276		201.0		0.268		-32.0		0.002		362.6		0.269		
12.891		-165.0		-0.278		198.4		0.270		-29.8		0.000		362.2		0.263		
12.988		-171.6		-0.272		187.8		0.253		-21.9		0.002		360.9		0.259		
13.086		-176.0		-0.270		183.9		0.268		-13.1		-0.006		360.4		0.263		
13.184		-176.5		-0.266		182.6		0.262		-10.1		-0.002		359.1		0.265		
13.281		-183.1		-0.266		174.7		0.258		0.4		0.000		355.2		0.265		
13.379		-184.8		-0.264		170.8		0.251		8.8		0.008		358.3		0.259		
13.477		-188.3		-0.268		166.8		0.277		20.2		-0.008		355.7		0.256		
13.574		-193.6		-0.255		162.0		0.251		27.6		-0.013		357.0		0.244		
13.672		-193.2		-0.274		160.3		0.262		32.9		-0.006		355.7		0.267		
13.770		-196.7		-0.264		153.7		0.260		42.5		-0.006		353.5		0.261		
13.867		-199.8		-0.264		150.2		0.262		48.2		0.000		351.3		0.248		
13.965		-202.0		-0.259		147.6		0.266		52.6		-0.002		347.8		0.259		
14.063		-202.9		-0.255		139.7		0.247		63.5		0.002		345.7		0.250		
14.160		-206.8		-0.266		135.3		0.249		69.2		-0.004		340.4		0.241		
14.258		-208.1		-0.249		131.4		0.239		74.5		0.013		343.5		0.248		
14.355		-207.3		-0.245		128.3		0.247		82.8		0.000		336.1		0.231		
14.453		-211.2		-0.251		122.6		0.262		87.2		-0.002		337.4		0.244		
14.551		-214.3		-0.247		118.7		0.239		93.8		0.006		329.6		0.239		
14.648		-210.3		-0.238		115.6		0.251		99.9		0.000		323.5		0.246		
14.746		-210.8		-0.253		109.0		0.226		105.6		-0.004		322.6		0.237		
14.844		-213.4		-0.230		105.5		0.224		106.5		0.023		320.4		0.237		
14.941		-213.4		-0.224		104.2		0.013		109.5		0.241		318.7		0.224		
15.039		-212.5		-0.236		97.2		0.006		116.1		0.247		327.4		0.239		
15.137		-213.0		-0.245		87.1		-0.011		122.7		0.249		329.1		0.246		
15.234		-212.5		-0.255		87.6		0.015		127.9		0.241		339.6		0.252		
15.332		-213.4		-0.255		83.2		0.008		129.7		0.241		341.3		0.252		
15.430		-212.5		-0.264		77.5		-0.006		131.9		0.243		347.0		0.263		
15.527		-210.3		-0.259		70.5		0.000		132.7		0.258		347.4		0.248		
15.625		-211.7		-0.266		66.6		0.015		140.2		0.249		354.3		0.256		
15.723		-214.3		-0.274		57.4		0.000		145.5		0.264		357.0		0.261		
15.820		-209.5		-0.268		51.2		0.006		148.5		0.264		360.4		0.267		
15.918		-211.2		-0.274		41.6		-0.002		156.0		0.264		362.6		0.265		
16.016		-206.8		-0.270		35.5		-0.006		156.8		0.253		364.8		0.265		
16.113		-201.5		-0.274		32.4		-0.017		159.9		0.272		363.5		0.271		
16.211		-197.1		-0.280		22.3		-0.002		166.0		0.260		363.0		0.271		
16.309		-194.5		-0.276		19.3		-0.002		171.7		0.251		360.0		0.267		
16.406		-187.5		-0.274		13.1		0.011		177.4		0.260		363.5		0.267		
16.504		-183.5		-0.266		1.8		0.006		178.3		0.268		360.9		0.263		
16.602		-178.2		-0.261		-4.8		-0.008		179.2		0.266		360.0		0.254		
16.699		-173.4		-0.276		-15.3		-0.002		185.3		0.268		362.6		0.271		
16.797		-168.1		-0.255		-22.3		-0.008		186.2		0.268		356.5		0.261		
16.895		-166.8		-0.266		-28.0		-0.002		193.2		0.270		356.5		0.265		
16.992		-161.1		-0.266		-36.8		-0.004		195.8		0.262		357.8		0.265		
17.090		-158.0		-0.257		-43.8		0.008		198.9		0.258		351.3		0.246		
17.188		-154.0		-0.259		-51.2		-0.006		200.2		0.264		353.0		0.265		
17.285		-150.1		-0.261		-56.9		0.002		201.1		0.260		350.9		0.263		
17.383		-142.1		-0.249		-62.2		-0.008		205.5		0.251		347.4		0.250		
17.480		-136.4		-0.253		-70.5		-0.006		203.3		0.243		347.4		0.259		
17.578		-136.4		-0.255		-75.8		-0.013		208.5		0.256		341.3		0.239		
17.676		-131.6		-0.247		-84.1		-0.004		208.1		0.245		339.6		0.250		
17.773		-125.0		-0.242		-90.2		0.000		212.9		0.234		332.6		0.239		
17.871		-120.6		-0.253		-95.5		0.000		207.2		0.243		331.7		0.259		
17.969		-118.8		-0.247		-101.1		-0.006		211.2		0.228		327.0		0.229		
18.066		-114.9		-0.238		-106.4		0.008		212.9		0.230		323.9		0.239		
18.164		-108.7		-0.249		-112.5		0.000		213.8		0.243		317.8		0.235		
18.262		-112.2		-0.076		-109.0		-0.177		212.9		0.243		321.3		0.233		
18.359		-100.3		-0.004		-115.6		-0.241		214.7		0.230		332.2		0.241		
18.457		-95.0		0.002		-124.4		-0.236		212.9		0.243		337.0		0.250		
18.555		-93.3		-0.004		-126.5		-0.251		212.0		0.241		338.7		0.250		
18.652		-88.0		-0.002		-132.7		-0.245		214.7		0.253		343.9		0.244		
18.750		-77.4		0.004		-136.2		-0.258		213.4		0.245		347.8		0.256		
18.848		-76.1		-0.017		-137.1		-0.253		213.4		0.256		347.0		0.248		
18.945		-70.8		-0.013		-139.2		-0.264		212.0		0.247		352.2		0.248		
19.043		-64.7		0.000		-141.9		-0.262		211.2		0.262		357.0		0.256		
19.141		-56.8		0.000		-148.9		-0.268		206.8		0.264		357.4		0.241		
19.238		-49.7		0.002		-152.4		-0.262		210.3		0.260		364.3		0.263		
19.336		-43.6		-0.008		-156.3		-0.279		211.6		0.264		363.9		0.274		
19.434		-35.6		-0.004		-164.2		-0.268		205.0		0.277		366.5		0.267		
19.531		-28.6		-0.013		-167.3		-0.279		199.8		0.268		365.7		0.278		
19.629		-20.2		0.008		-168.1		-0.270		195.8		0.266		364.8		0.271		
19.727		-15.8		-0.008		-172.1		-0.274		191.0		0.256		364.8		0.259		
19.824		-7.9		-0.002		-178.7		-0.264		188.0		0.262		363.5		0.274		
19.922		1.8		0.002		-181.3		-0.264		182.7		0.258		362.2		0.267		
20.020		7.5		0.000		-187.0		-0.264		176.6		0.260		363.9		0.267		
20.117		19.8		0.006		-189.6		-0.274		172.6		0.264		360.4		0.261		
20.215		25.1		0.004		-191.8		-0.266		166.0		0.262		357.4		0.256		
20.313		30.4		-0.013		-196.6		-0.268		162.1		0.266		357.8		0.254		
20.410		38.7		-0.008		-198.4		-0.272		157.3		0.260		355.7		0.265		
20.508		47.5		-0.013		-201.4		-0.249		152.9		0.249		354.8		0.265		
20.605		51.9		-0.002		-202.7		-0.255		150.7		0.264		354.3		0.259		
20.703		60.7		-0.002		-206.7		-0.264		142.4		0.272		348.7		0.252		
20.801		70.0		0.000		-207.6		-0.253		141.5		0.258		343.9		0.239		
20.898		76.6		-0.002		-208.9		-0.249		136.7		0.258		340.0		0.252		
20.996		80.5		-0.008		-210.6		-0.249		130.6		0.243		338.3		0.246		
21.094		86.2		-0.008		-211.9		-0.251		125.7		0.245		338.3		0.241		
21.191		95.0		0.004		-211.5		-0.245		122.7		0.243		333.5		0.241		
21.289		98.1		-0.006		-211.9		-0.234		117.4		0.234		329.6		0.237		
21.387		104.3		0.004		-212.4		-0.243		111.3		0.234		327.4		0.231		
21.484		107.8		0.004		-212.4		-0.247		106.5		0.232		320.9		0.237		
21.582		110.5		0.162		-214.1		-0.230		111.7		0.057		318.7		0.244		
21.680		114.9		0.242		-214.1		-0.243		100.8		0.006		332.2		0.248		
21.777		120.1		0.257		-215.0		-0.232		94.6		0.000		333.5		0.250		
21.875		125.0		0.249		-213.7		-0.251		89.8		-0.004		337.4		0.252		
21.973		131.1		0.257		-219.4		-0.255		86.3		0.000		338.7		0.252		
22.070		132.5		0.249		-215.4		-0.255		80.2		0.002		345.2		0.256		
22.168		138.2		0.249		-215.0		-0.266		74.5		-0.006		350.4		0.261		
22.266		139.1		0.257		-212.4		-0.258		69.2		0.011		351.3		0.246		
22.363		143.5		0.266		-214.6		-0.260		63.1		0.002		357.8		0.256		
22.461		147.0		0.255		-212.8		-0.258		54.8		-0.004		361.3		0.269		
22.559		151.8		0.270		-209.7		-0.277		45.6		-0.002		363.0		0.256		
22.656		156.7		0.249		-204.9		-0.279		41.6		0.000		362.2		0.265		
22.754		161.5		0.266		-204.1		-0.287		32.0		0.011		364.3		0.254		
22.852		163.7		0.253		-196.6		-0.272		28.0		0.013		365.2		0.261		
22.949		169.4		0.264		-196.6		-0.260		21.5		0.000		363.0		0.259		
23.047		174.3		0.261		-190.0		-0.274		17.1		-0.002		362.2		0.269		
23.145		180.0		0.257		-181.7		-0.272		5.7		-0.004		362.2		0.271		
23.242		180.0		0.259		-179.1		-0.255		-1.3		0.006		358.3		0.246		
23.340		182.2		0.257		-175.2		-0.260		-10.1		-0.006		356.5		0.241		
23.438		188.8		0.261		-170.8		-0.262		-18.8		-0.006		356.1		0.256		
23.535		192.7		0.264		-166.4		-0.255		-23.7		-0.002		357.4		0.282		
23.633		193.6		0.259		-164.6		-0.272		-34.2		0.006		357.8		0.252		
23.730		198.9		0.259		-160.3		-0.264		-43.8		-0.004		354.3		0.256		
23.828		195.8		0.268		-156.8		-0.255		-47.8		0.002		351.3		0.244		
23.926		200.2		0.257		-147.1		-0.266		-53.0		-0.017		347.8		0.267		
24.023		203.7		0.259		-141.9		-0.264		-64.0		0.008		346.5		0.250		
24.121		206.4		0.257		-138.4		-0.260		-64.8		-0.013		342.6		0.256		
24.219		207.7		0.245		-137.1		-0.260		-75.8		-0.006		340.9		0.246		
24.316		206.4		0.251		-130.0		-0.249		-81.9		-0.004		340.4		0.246		
24.414		212.5		0.247		-128.3		-0.255		-86.3		-0.008		335.7		0.233		
24.512		214.3		0.245		-121.7		-0.245		-93.8		-0.006		333.0		0.237		
24.609		210.3		0.245		-117.8		-0.241		-99.5		-0.002		329.6		0.237		
24.707		212.5		0.232		-112.5		-0.255		-102.5		-0.008		323.0		0.233		
24.805		211.2		0.240		-110.3		-0.239		-108.2		-0.011		319.1		0.235		
24.902		214.7		0.230		-106.0		-0.127		-109.1		-0.125		320.0		0.229		
25.000		213.9		0.226		-99.8		-0.002		-115.2		-0.247		327.0		0.239		
25.098		211.2		0.238		-95.5		0.004		-119.6		-0.247		333.0		0.239		
25.195		213.4		0.238		-89.3		0.000		-124.0		-0.251		336.1		0.248		
25.293		212.1		0.251		-87.1		-0.011		-130.1		-0.253		338.7		0.235		
25.391		214.3		0.251		-79.3		-0.013		-133.6		-0.249		342.2		0.256		
25.488		213.0		0.259		-77.9		0.000		-136.7		-0.262		346.5		0.263		
25.586		213.0		0.247		-68.3		-0.011		-138.9		-0.260		346.1		0.252		
25.684		211.7		0.251		-60.9		-0.002		-143.7		-0.260		350.4		0.267		
25.781		212.5		0.255		-56.5		-0.015		-146.3		-0.262		357.0		0.261		
25.879		211.2		0.261		-45.5		0.004		-151.6		-0.275		361.3		0.254		
25.977		208.1		0.261		-41.2		-0.002		-155.5		-0.268		357.8		0.263		
26.074		201.5		0.264		-31.5		-0.019		-161.7		-0.275		365.2		0.265		
26.172		198.5		0.268		-27.6		-0.011		-165.6		-0.262		362.6		0.269		
26.270		196.3		0.266		-23.2		0.008		-170.0		-0.268		360.9		0.278		
26.367		190.5		0.274		-16.2		0.008		-173.9		-0.283		362.2		0.267		
26.465		184.4		0.268		-7.4		-0.002		-180.1		-0.270		361.3		0.252		
26.563		180.0		0.261		2.2		0.008		-182.7		-0.264		361.3		0.263		
26.660		177.8		0.261		7.4		0.002		-185.8		-0.258		357.0		0.256		
26.758		171.6		0.259		17.5		-0.002		-189.7		-0.264		361.3		0.265		
26.855		169.4		0.257		22.3		-0.002		-194.1		-0.268		360.0		0.261		
26.953		164.1		0.268		30.2		-0.004		-192.8		-0.262		358.3		0.256		
27.051		159.7		0.266		39.8		0.002		-195.8		-0.266		353.5		0.250		
27.148		154.5		0.255		47.7		0.002		-198.5		-0.270		355.2		0.248		
27.246		151.8		0.251		53.4		0.002		-200.2		-0.266		350.9		0.267		
27.344		146.5		0.257		59.6		0.006		-208.1		-0.270		347.0		0.254		
27.441		139.1		0.253		66.6		0.008		-206.4		-0.256		347.0		0.252		
27.539		136.4		0.242		74.0		0.006		-206.8		-0.260		342.2		0.252		
27.637		133.8		0.253		78.4		-0.015		-209.4		-0.247		341.7		0.256		
27.734		127.6		0.245		85.8		-0.013		-210.3		-0.256		337.4		0.250		
27.832		123.7		0.242		91.1		0.006		-211.2		-0.249		333.5		0.250		
27.930		115.3		0.240		98.1		-0.011		-212.9		-0.249		328.3		0.233		
28.027		114.0		0.251		102.9		0.004		-211.2		-0.258		326.1		0.233		
28.125		110.0		0.232		107.3		0.002		-211.6		-0.228		323.0		0.231		
28.223		106.9		0.143		109.9		0.091		-213.4		-0.232		318.7		0.233		
28.320		102.1		0.006		113.8		0.236		-212.5		-0.249		328.3		0.244		
28.418		96.8		0.000		118.2		0.247		-214.7		-0.241		330.9		0.241		
28.516		92.4		-0.002		125.2		0.260		-212.5		-0.243		339.1		0.244		
28.613		83.6		0.000		126.1		0.260		-215.6		-0.258		340.9		0.252		
28.711		84.0		-0.002		134.0		0.247		-214.2		-0.260		343.9		0.254		
28.809		77.4		0.002		137.9		0.264		-215.1		-0.264		347.8		0.250		
28.906		73.0		0.002		137.5		0.253		-212.5		-0.258		350.0		0.263		
29.004		64.7		0.006		142.3		0.264		-213.4		-0.264		352.6		0.254		
29.102		58.1		0.002		145.4		0.270		-213.4		-0.270		357.8		0.254		
29.199		51.0		0.000		149.8		0.270		-213.4		-0.268		362.6		0.271		
29.297		43.6		0.004		154.1		0.266		-209.0		-0.275		363.9		0.259		
29.395		36.1		-0.011		156.8		0.266		-205.0		-0.272		368.7		0.261		
29.492		31.2		0.002		162.5		0.258		-204.2		-0.268		366.1		0.263		
29.590		22.0		-0.008		164.6		0.270		-198.5		-0.266		364.3		0.269		
29.688		16.3		-0.002		169.0		0.268		-192.8		-0.275		364.8		0.269		
29.785		8.8		0.000		176.0		0.272		-187.5		-0.272		360.9		0.280		
29.883		4.0		-0.004		178.7		0.258		-182.7		-0.268		360.4		0.267		
29.980		-4.4		-0.011		182.6		0.255		-176.6		-0.264		363.5		0.265		
30.078		-13.6		-0.004		184.8		0.268		-172.6		-0.266		360.0		0.256		
30.176		-23.8		-0.004		190.9		0.260		-169.6		-0.266		359.1		0.256		
30.273		-29.5		-0.021		193.1		0.277		-163.0		-0.268		358.3		0.250		
30.371		-38.7		0.002		194.9		0.260		-159.5		-0.264		357.0		0.261		
30.469		-45.3		-0.006		198.8		0.268		-156.8		-0.264		354.3		0.254		
30.566		-51.5		0.004		202.7		0.255		-152.0		-0.272		350.9		0.269		
30.664		-58.1		0.000		205.4		0.253		-145.0		-0.264		351.3		0.246		
30.762		-65.1		0.000		204.9		0.253		-141.5		-0.260		344.8		0.259		
30.859		-71.7		-0.002		209.3		0.243		-136.3		-0.260		344.3		0.248		
30.957		-79.6		-0.011		208.9		0.245		-132.3		-0.258		338.7		0.248		
31.055		-86.7		-0.008		210.6		0.245		-128.8		-0.251		340.4		0.256		
31.152		-92.0		-0.004		208.4		0.247		-121.8		-0.253		334.3		0.239		
31.250		-96.4		-0.008		209.7		0.243		-119.2		-0.243		329.1		0.246		
31.348		-104.3		-0.013		209.7		0.245		-113.9		-0.243		324.3		0.235		
31.445		-106.9		0.000		215.4		0.228		-106.9		-0.241		320.4		0.231		
31.543		-108.3		-0.084		212.8		0.230		-110.8		-0.131		318.3		0.239		
31.641		-112.7		-0.238		211.9		0.245		-102.1		-0.011		328.3		0.237		
31.738		-121.5		-0.245		215.4		0.243		-100.3		0.002		331.3		0.244		
31.836		-125.0		-0.240		213.7		0.234		-94.2		-0.008		336.1		0.248		
31.934		-127.6		-0.251		213.2		0.241		-87.6		-0.011		340.4		0.248		
32.031		-134.7		-0.255		212.4		0.255		-84.6		-0.004		345.2		0.239		
32.129		-135.1		-0.266		210.2		0.266		-80.6		-0.006		347.8		0.256		
32.227		-137.7		-0.259		212.4		0.260		-75.8		-0.011		356.5		0.254		
32.324		-143.5		-0.259		211.5		0.262		-68.3		-0.006		353.0		0.269		
32.422		-146.5		-0.272		210.2		0.258		-57.0		0.004		356.5		0.269		
32.520		-150.5		-0.268		209.3		0.258		-54.3		-0.006		360.9		0.261		
32.617		-154.0		-0.268		206.2		0.266		-47.3		-0.019		362.2		0.263		
32.715		-161.5		-0.268		202.7		0.268		-41.6		0.002		363.9		0.271		
32.813		-161.1		-0.274		194.9		0.274		-30.7		-0.011		362.2		0.271		
32.910		-167.7		-0.276		194.0		0.264		-24.1		0.004		363.0		0.259		
33.008		-170.3		-0.259		186.5		0.262		-19.3		-0.004		366.1		0.267		
33.105		-176.5		-0.270		181.3		0.270		-11.8		-0.011		360.0		0.265		
33.203		-179.1		-0.257		179.1		0.251		-3.5		0.011		358.7		0.263		
33.301		-182.2		-0.264		173.8		0.266		3.1		0.002		360.0		0.267		
33.398		-184.8		-0.272		172.1		0.262		12.3		0.004		358.3		0.254		
33.496		-188.8		-0.272		166.0		0.260		25.0		0.008		356.5		0.263		
33.594		-193.6		-0.253		161.1		0.260		32.4		0.004		354.8		0.263		
33.691		-194.1		-0.270		158.1		0.262		37.7		0.000		352.6		0.265		
33.789		-198.9		-0.259		152.8		0.258		42.1		0.008		350.4		0.254		
33.887		-202.0		-0.266		147.1		0.262		51.3		-0.002		349.6		0.252		
33.984		-203.3		-0.257		143.2		0.247		55.6		0.008		346.1		0.254		
34.082		-207.3		-0.247		136.6		0.266		65.3		0.008		345.7		0.237		
34.180		-209.5		-0.247		134.9		0.251		71.0		-0.004		344.3		0.263		
34.277		-209.0		-0.242		130.9		0.239		77.5		-0.011		340.9		0.254		
34.375		-208.6		-0.253		127.4		0.232		84.6		0.000		332.6		0.246		
34.473		-212.5		-0.253		123.0		0.243		88.5		0.006		331.3		0.237		
34.570		-212.5		-0.253		118.7		0.234		98.1		-0.006		330.4		0.239		
34.668		-213.4		-0.253		113.8		0.239		101.2		-0.011		328.7		0.241		
34.766		-211.7		-0.249		109.9		0.239		107.3		-0.013		321.7		0.246		
34.863		-211.7		-0.249		106.8		0.179		106.9		0.053		318.3		0.237		
34.961		-216.1		-0.253		98.5		0.002		112.2		0.243		324.8		0.241		
35.059		-211.2		-0.247		92.8		0.008		115.7		0.241		329.6		0.237		
35.156		-212.5		-0.259		89.8		0.006		121.8		0.253		335.7		0.239		
35.254		-213.4		-0.240		85.4		0.002		124.4		0.262		338.3		0.254		
35.352		-210.8		-0.253		76.2		-0.002		130.1		0.247		341.3		0.250		
35.449		-213.4		-0.257		74.0		0.004		135.8		0.249		342.6		0.256		
35.547		-213.4		-0.257		69.6		0.002		138.0		0.249		350.9		0.256		
35.645		-213.0		-0.266		63.1		0.006		141.5		0.262		352.2		0.259		
35.742		-211.2		-0.268		56.0		0.002		143.7		0.260		355.7		0.269		
35.840		-209.9		-0.257		47.7		0.004		153.3		0.249		359.6		0.263		
35.938		-210.3		-0.266		40.7		0.000		154.7		0.262		362.6		0.261		
36.035		-204.6		-0.270		35.0		0.006		158.2		0.264		364.3		0.256		
36.133		-201.1		-0.283		27.6		0.008		161.2		0.258		365.2		0.274		
36.230		-197.1		-0.274		22.3		-0.002		168.2		0.258		362.2		0.263		
36.328		-192.7		-0.276		14.4		-0.002		172.6		0.264		363.9		0.259		
36.426		-188.8		-0.272		8.3		0.004		173.5		0.275		363.5		0.261		
36.523		-180.9		-0.268		3.1		0.013		181.4		0.253		357.4		0.280		
36.621		-176.0		-0.261		-10.9		0.004		184.9		0.268		357.4		0.248		
36.719		-172.1		-0.266		-15.8		-0.011		185.8		0.268		360.4		0.269		
36.816		-171.2		-0.264		-21.9		-0.006		191.5		0.272		360.9		0.263		
36.914		-164.6		-0.276		-31.1		-0.008		191.5		0.260		357.8		0.265		
37.012		-160.2		-0.257		-37.2		0.000		198.5		0.264		357.4		0.252		
37.109		-156.7		-0.259		-45.5		0.006		201.1		0.251		358.7		0.267		
37.207		-150.9		-0.264		-53.0		-0.015		202.8		0.249		350.9		0.250		
37.305		-148.3		-0.266		-57.8		-0.002		207.2		0.249		349.1		0.248		
37.402		-141.3		-0.257		-67.0		0.008		203.7		0.264		346.1		0.254		
37.500		-139.9		-0.249		-74.0		-0.008		209.0		0.251		346.1		0.244		
37.598		-137.3		-0.253		-81.9		-0.006		209.9		0.258		340.0		0.235		
37.695		-128.1		-0.245		-86.3		0.000		209.0		0.237		339.1		0.248		
37.793		-127.6		-0.257		-91.5		-0.002		207.7		0.247		333.0		0.252		
37.891		-121.5		-0.249		-96.3		0.002		214.7		0.260		330.4		0.246		
37.988		-119.3		-0.236		-103.3		-0.004		212.5		0.230		328.7		0.248		
38.086		-107.8		-0.240		-109.0		-0.011		211.2		0.234		322.6		0.229		
38.184		-111.8		-0.205		-111.7		-0.040		212.9		0.241		320.9		0.226		
38.281		-109.1		0.034		-113.0		-0.253		212.5		0.228		327.8		0.231		
38.379		-98.1		-0.002		-120.0		-0.236		215.6		0.245		330.9		0.248		
38.477		-92.0		-0.004		-125.7		-0.249		213.8		0.258		336.5		0.244		
38.574		-86.2		0.002		-129.6		-0.258		213.8		0.251		343.5		0.246		
38.672		-81.4		-0.013		-136.2		-0.251		212.5		0.253		344.3		0.252		
38.770		-77.9		-0.017		-138.4		-0.264		211.2		0.237		347.8		0.252		
38.867		-71.3		-0.011		-137.1		-0.266		210.3		0.251		348.3		0.259		
38.965		-67.3		-0.013		-142.7		-0.247		211.6		0.262		353.9		0.259		
39.063		-59.8		0.000		-143.2		-0.266		209.4		0.268		357.0		0.254		
39.160		-53.7		-0.006		-151.1		-0.279		212.0		0.262		358.3		0.265		
39.258		-47.5		0.002		-153.3		-0.264		211.6		0.275		365.2		0.269		
39.355		-39.2		-0.004		-157.6		-0.270		208.1		0.260		365.7		0.274		
39.453		-31.7		-0.002		-164.6		-0.274		203.3		0.258		367.0		0.280		
39.551		-26.4		0.002		-167.3		-0.268		199.3		0.262		366.5		0.271		
39.648		-18.5		-0.006		-171.2		-0.270		193.6		0.266		364.3		0.259		
39.746		-9.7		-0.002		-173.8		-0.268		191.0		0.268		363.5		0.265		
39.844		-3.5		0.008		-180.4		-0.272		188.4		0.253		361.3		0.274		
39.941		4.4		-0.008		-182.2		-0.268		180.9		0.258		361.3		0.259		
40.039		10.6		0.011		-187.4		-0.264		177.4		0.258		359.6		0.265		
40.137		19.8		-0.011		-194.0		-0.266		169.1		0.249		358.7		0.261		
40.234		28.6		0.002		-194.4		-0.258		161.7		0.264		357.8		0.263		
40.332		35.6		0.006		-194.4		-0.258		160.8		0.260		357.0		0.261		
40.430		40.9		0.002		-200.5		-0.264		154.2		0.260		357.4		0.248		
40.527		47.5		-0.002		-204.5		-0.262		151.2		0.251		353.0		0.259		
40.625		57.6		0.002		-204.5		-0.258		148.5		0.258		352.6		0.271		
40.723		63.4		-0.013		-207.6		-0.255		143.7		0.256		349.6		0.254		
40.820		72.2		0.002		-207.6		-0.264		137.6		0.251		344.8		0.250		
40.918		76.1		-0.008		-209.7		-0.251		132.3		0.247		343.0		0.246		
41.016		83.2		0.000		-210.6		-0.249		130.1		0.243		339.6		0.259		
41.113		92.0		0.006		-214.1		-0.241		124.4		0.239		333.5		0.244		
41.211		94.6		0.000		-211.9		-0.243		123.1		0.247		330.0		0.250		
41.309		102.5		0.000		-213.7		-0.243		113.5		0.237		329.6		0.237		
41.406		106.1		-0.002		-213.7		-0.230		110.4		0.234		325.7		0.239		
41.504		111.3		0.040		-213.7		-0.232		106.5		0.196		323.5		0.235		
41.602		111.3		0.247		-211.5		-0.236		102.1		0.002		327.4		0.237		
41.699		114.0		0.259		-213.7		-0.234		97.7		0.004		332.6		0.248		
41.797		123.7		0.251		-212.4		-0.251		91.6		0.004		336.1		0.244		
41.895		125.4		0.253		-215.0		-0.251		86.7		-0.004		339.1		0.248		
41.992		131.1		0.266		-215.0		-0.268		85.0		-0.006		340.9		0.250		
42.090		132.5		0.257		-214.1		-0.262		80.6		-0.006		347.0		0.254		
42.188		138.2		0.255		-213.7		-0.247		73.6		-0.006		349.6		0.261		
42.285		140.4		0.255		-215.9		-0.255		67.9		-0.013		352.2		0.254		
42.383		146.1		0.264		-211.5		-0.272		61.3		0.002		359.6		0.263		
42.480		148.3		0.272		-212.8		-0.266		52.6		-0.004		359.1		0.256		
42.578		154.0		0.270		-210.6		-0.277		45.6		0.004		363.5		0.269		
42.676		158.0		0.270		-206.7		-0.268		38.1		-0.013		363.0		0.274		
42.773		162.4		0.270		-202.3		-0.264		30.2		0.000		363.0		0.265		
42.871		166.8		0.264		-197.5		-0.266		26.7		0.000		362.6		0.261		
42.969		171.2		0.261		-194.4		-0.262		20.2		0.000		360.0		0.265		
43.066		175.6		0.264		-190.5		-0.264		15.8		0.008		362.2		0.263		
43.164		179.5		0.261		-184.3		-0.264		3.9		-0.002		360.0		0.261		
43.262		181.3		0.268		-180.8		-0.266		-3.5		0.002		358.3		0.263		
43.359		184.4		0.255		-172.1		-0.270		-11.8		0.000		356.1		0.254		
43.457		187.9		0.259		-169.0		-0.253		-21.5		-0.006		358.7		0.252		
43.555		189.7		0.261		-166.4		-0.266		-27.2		-0.004		353.9		0.269		
43.652		192.7		0.259		-159.4		-0.260		-36.4		-0.006		357.0		0.256		
43.750		195.8		0.257		-157.2		-0.272		-44.2		-0.006		353.0		0.263		
43.848		198.0		0.259		-151.1		-0.258		-49.5		-0.015		349.6		0.256		
43.945		201.1		0.242		-148.9		-0.249		-55.2		-0.004		349.1		0.248		
44.043		205.5		0.249		-141.0		-0.255		-62.2		-0.006		343.5		0.261		
44.141		208.1		0.240		-137.5		-0.251		-71.4		-0.004		343.0		0.241		
44.238		209.0		0.240		-135.3		-0.247		-73.6		-0.013		339.1		0.237		
44.336		209.9		0.247		-129.2		-0.249		-80.6		-0.013		338.3		0.224		
44.434		211.2		0.238		-125.7		-0.232		-87.6		-0.006		337.0		0.252		
44.531		210.3		0.238		-123.0		-0.251		-96.8		-0.004		329.1		0.241		
44.629		212.1		0.236		-117.4		-0.251		-99.5		0.004		327.0		0.226		
44.727		211.2		0.236		-112.5		-0.247		-102.5		-0.002		320.0		0.239		
44.824		213.0		0.240		-110.3		-0.239		-109.1		-0.032		317.0		0.218		
44.922		214.7		0.238		-107.3		-0.025		-110.4		-0.226		322.2		0.224		
45.020		211.7		0.240		-99.0		-0.015		-114.3		-0.247		328.3		0.246		
45.117		216.1		0.240		-93.3		0.004		-118.7		-0.251		331.7		0.248		
45.215		213.0		0.242		-87.6		-0.013		-127.9		-0.243		335.2		0.237		
45.313		209.9		0.238		-84.5		-0.002		-131.4		-0.262		339.6		0.248		
45.410		214.3		0.247		-76.6		0.004		-134.5		-0.245		345.2		0.263		
45.508		213.4		0.253		-73.6		-0.006		-136.7		-0.264		349.1		0.263		
45.605		211.7		0.253		-69.6		-0.004		-138.4		-0.264		349.6		0.246		
45.703		213.9		0.270		-61.7		-0.015		-145.0		-0.260		358.3		0.265		
45.801		213.4		0.253		-51.7		0.000		-149.4		-0.262		359.1		0.256		
45.898		212.1		0.255		-47.3		-0.008		-153.8		-0.270		364.3		0.271		
45.996		206.8		0.264		-37.7		0.002		-159.9		-0.270		364.3		0.263		
46.094		202.4		0.261		-27.6		-0.013		-163.9		-0.281		368.7		0.259		
46.191		199.3		0.272		-25.4		-0.002		-163.9		-0.268		362.2		0.261		
46.289		193.2		0.264		-21.5		-0.004		-171.3		-0.262		362.6		0.263		
46.387		188.3		0.261		-14.9		-0.006		-176.1		-0.272		362.2		0.274		
46.484		185.3		0.259		-6.1		-0.032		-180.1		-0.260		361.3		0.276		
46.582		178.2		0.257		3.5		0.008		-180.9		-0.272		359.1		0.269		
46.680		175.1		0.266		12.7		0.004		-184.9		-0.256		361.3		0.267		
46.777		169.0		0.266		20.1		-0.002		-188.0		-0.277		357.8		0.259		
46.875		165.5		0.257		25.8		0.002		-191.5		-0.264		361.3		0.263		
46.973		162.4		0.268		35.9		-0.006		-195.4		-0.256		360.4		0.269		
47.070		158.0		0.266		39.8		0.008		-198.9		-0.258		355.2		0.256		
47.168		153.6		0.255		48.2		-0.008		-200.7		-0.264		352.6		0.256		
47.266		147.9		0.259		53.0		0.000		-201.1		-0.262		350.0		0.256		
47.363		143.9		0.255		61.3		0.002		-206.8		-0.268		345.7		0.259		
47.461		141.3		0.259		68.7		-0.006		-211.2		-0.251		346.5		0.244		
47.559		136.0		0.251		74.4		0.000		-209.0		-0.258		340.9		0.246		
47.656		131.6		0.255		79.3		-0.011		-209.0		-0.245		337.8		0.239		
47.754		130.3		0.242		88.9		0.002		-210.7		-0.247		334.8		0.241		
47.852		123.7		0.242		93.3		-0.006		-215.1		-0.245		333.0		0.246		
47.949		115.7		0.234		97.6		0.011		-208.5		-0.245		329.6		0.233		
48.047		112.7		0.238		102.9		-0.008		-212.5		-0.245		324.3		0.237		
48.145		109.1		0.232		109.0		0.000		-212.5		-0.237		318.7		0.241		
48.242		109.1		0.089		109.0		0.158		-214.7		-0.249		322.2		0.244		
48.340		101.2		0.000		116.0		0.239		-212.0		-0.249		327.4		0.233		
48.438		98.1		0.000		119.1		0.241		-213.8		-0.243		333.5		0.239		
48.535		91.5		-0.008		124.8		0.236		-211.6		-0.260		338.7		0.248		
48.633		83.2		0.002		130.9		0.251		-216.0		-0.251		343.9		0.256		
48.730		80.1		0.015		132.7		0.260		-214.7		-0.251		347.0		0.250		
48.828		77.4		-0.008		135.7		0.258		-216.0		-0.268		349.6		0.254		
48.926		68.6		-0.006		140.6		0.260		-213.4		-0.262		350.0		0.248		
49.023		63.4		-0.002		141.9		0.251		-216.0		-0.262		356.1		0.256		
49.121		56.3		-0.008		149.3		0.268		-213.4		-0.281		359.6		0.263		
49.219		50.2		0.000		150.2		0.270		-213.4		-0.270		364.8		0.261		
49.316		39.2		-0.002		155.9		0.279		-212.0		-0.281		364.3		0.267		
49.414		33.4		-0.008		158.9		0.262		-205.5		-0.277		365.2		0.254		
49.512		29.0		0.004		164.6		0.268		-201.1		-0.264		360.0		0.280		
49.609		22.0		-0.002		166.0		0.264		-200.2		-0.277		362.6		0.267		
49.707		14.1		-0.002		169.9		0.262		-193.2		-0.266		366.1		0.267		
49.805		9.7		0.000		177.3		0.262		-186.6		-0.272		360.0		0.250		
49.902		-0.9		0.006		181.7		0.268		-183.1		-0.277		360.0		0.256		
